File: driven_nickelate/characterization/xrd/NNO_fit_f=0.5.csv
40,3.68559
40.02,4.45853
40.04,5.34065
40.06,6.31156
40.08,7.34849
40.1,8.4268
40.12,9.52055
40.14,10.6032
40.16,11.6483
40.18,12.6299
40.2,13.5238
40.22,14.3073
40.24,14.9606
40.26,15.4669
40.28,15.8129
40.3,15.9893
40.32,15.9909
40.34,15.8168
40.36,15.4707
40.38,14.9605
40.4,14.2984
40.42,13.5005
40.44,12.5864
40.46,11.5791
40.48,10.5039
40.5,9.38807
40.52,8.2604
40.54,7.15012
40.56,6.08637
40.58,5.09741
40.6,4.20996
40.62,3.44844
40.64,2.8344
40.66,2.38592
40.68,2.11712
40.7,2.03777
40.72,2.15302
40.74,2.46318
40.76,2.96372
40.78,3.64528
40.8,4.49388
40.82,5.49123
40.84,6.61511
40.86,7.83991
40.88,9.13724
40.9,10.4766
40.92,11.826
40.94,13.1532
40.96,14.4257
40.98,15.6124
41,16.6838
41.02,17.6131
41.04,18.3767
41.06,18.955
41.08,19.3326
41.1,19.4992
41.12,19.4496
41.14,19.1839
41.16,18.7076
41.18,18.0317
41.2,17.1722
41.22,16.1499
41.24,14.9899
41.26,13.7211
41.28,12.3755
41.3,10.9874
41.32,9.59245
41.34,8.22708
41.36,6.92735
41.38,5.72813
41.4,4.66222
41.42,3.75951
41.44,3.0462
41.46,2.54409
41.48,2.27001
41.5,2.2353
41.52,2.4455
41.54,2.90015
41.56,3.59269
41.58,4.51055
41.6,5.63545
41.62,6.94369
41.64,8.40677
41.66,9.99197
41.68,11.6631
41.7,13.3815
41.72,15.1067
41.74,16.7977
41.76,18.4138
41.78,19.9156
41.8,21.2661
41.82,22.4317
41.84,23.3828
41.86,24.0949
41.88,24.5491
41.9,24.7328
41.92,24.6397
41.94,24.2707
41.96,23.6332
41.98,22.7419
42,21.6174
42.02,20.2871
42.04,18.7833
42.06,17.1435
42.08,15.4089
42.1,13.6239
42.12,11.8344
42.14,10.0876
42.16,8.42983
42.18,6.90625
42.2,5.55924
42.22,4.42742
42.24,3.5447
42.26,2.93929
42.28,2.633
42.3,2.64055
42.32,2.96913
42.34,3.61811
42.36,4.57895
42.38,5.83528
42.4,7.36321
42.42,9.13177
42.44,11.1036
42.46,13.2359
42.48,15.4811
42.5,17.7882
42.52,20.1041
42.54,22.3744
42.56,24.5453
42.58,26.5645
42.6,28.3828
42.62,29.9551
42.64,31.242
42.66,32.2102
42.68,32.8341
42.7,33.0961
42.72,32.9875
42.74,32.5084
42.76,31.6683
42.78,30.4859
42.8,28.9885
42.82,27.2119
42.84,25.1993
42.86,23.0006
42.88,20.6712
42.9,18.2707
42.92,15.8615
42.94,13.5073
42.96,11.2717
42.98,9.21659
43,7.40034
43.02,5.87667
43.04,4.69302
43.06,3.88938
43.08,3.49715
43.1,3.53819
43.12,4.02416
43.14,4.95605
43.16,6.32393
43.18,8.10704
43.2,10.2741
43.22,12.7839
43.24,15.586
43.26,18.6221
43.28,21.8269
43.3,25.1301
43.32,28.4575
43.34,31.7332
43.36,34.8809
43.38,37.8265
43.4,40.4993
43.42,42.8339
43.44,44.7725
43.46,46.2656
43.48,47.2739
43.5,47.7694
43.52,47.7364
43.54,47.1716
43.56,46.0853
43.58,44.5006
43.6,42.4535
43.62,39.9924
43.64,37.1769
43.66,34.0767
43.68,30.7701
43.7,27.3422
43.72,23.8831
43.74,20.4857
43.76,17.2438
43.78,14.2491
43.8,11.5899
43.82,9.34808
43.84,7.59737
43.86,6.4013
43.88,5.8114
43.9,5.86571
43.92,6.58756
43.94,7.98467
43.96,10.0486
43.98,12.7547
44,16.062
44.02,19.9145
44.04,24.2414
44.06,28.9591
44.08,33.9725
44.1,39.1774
44.12,44.4627
44.14,49.7128
44.16,54.8103
44.18,59.6391
44.2,64.0871
44.22,68.0488
44.24,71.4284
44.26,74.1421
44.28,76.1205
44.3,77.3109
44.32,77.6786
44.34,77.2086
44.36,75.9061
44.38,73.7973
44.4,70.9291
44.42,67.3686
44.44,63.202
44.46,58.533
44.48,53.4811
44.5,48.1787
44.52,42.7685
44.54,37.4005
44.56,32.2283
44.58,27.406
44.6,23.0838
44.62,19.4052
44.64,16.5024
44.66,14.4937
44.68,13.4796
44.7,13.5404
44.72,14.7334
44.74,17.0908
44.76,20.6184
44.78,25.2947
44.8,31.0704
44.82,37.8689
44.84,45.5871
44.86,54.0976
44.88,63.2504
44.9,72.8761
44.92,82.7892
44.94,92.7923
44.96,102.68
44.98,112.245
45,121.281
45.02,129.587
45.04,136.978
45.06,143.282
45.08,148.351
45.1,152.062
45.12,154.322
45.14,155.072
45.16,154.288
45.18,151.983
45.2,148.212
45.22,143.066
45.24,136.678
45.26,129.216
45.28,120.883
45.3,111.915
45.32,102.574
45.34,93.1443
45.36,83.928
45.38,75.237
45.4,67.3873
45.42,60.6917
45.44,55.4525
45.46,51.9542
45.48,50.4565
45.5,51.1872
45.52,54.3359
45.54,60.048
45.56,68.4201
45.58,79.4953
45.6,93.2606
45.62,109.644
45.64,128.516
45.66,149.688
45.68,172.914
45.7,197.897
45.72,224.291
45.74,251.707
45.76,279.722
45.78,307.888
45.8,335.738
45.82,362.803
45.84,388.614
45.86,412.722
45.88,434.709
45.9,454.194
45.92,470.855
45.94,484.43
45.96,494.738
45.98,501.685
46,505.272
46.02,505.606
46.04,502.908
46.06,497.514
46.08,489.884
46.1,480.598
46.12,470.364
46.14,460.01
46.16,450.485
46.18,442.851
46.2,438.282
46.22,438.054
46.24,443.536
46.26,456.188
46.28,477.547
46.3,509.227
46.32,552.911
46.34,610.35
46.36,683.37
46.38,773.876
46.4,883.874
46.42,1015.5
46.44,1171.05
46.46,1353.07
46.48,1564.41
46.5,1808.39
46.52,2088.92
46.54,2410.78
46.56,2779.95
46.58,3204.06
46.6,3693.07
46.62,4260.25
46.64,4923.59
46.66,5707.95
46.68,6648.39
46.7,7795.41
46.72,9223.59
46.74,11046.3
46.76,13442.1
46.78,16704
46.8,21338.8
46.82,28282.7
46.84,39420.4
46.86,59012.4
46.88,98432.1
46.9,197089
46.92,577253
46.94,7.18498e+06
46.96,3.95111e+06
46.98,505036
47,192788
47.02,102950
47.04,64977.8
47.06,45339
47.08,33810.8
47.1,26419.6
47.12,21357.7
47.14,17706.5
47.16,14958.8
47.18,12816.5
47.2,11095.3
47.22,9676.9
47.24,8482.66
47.26,7459.18
47.28,6569.47
47.3,5787.54
47.32,5094.96
47.34,4478.6
47.36,3929.09
47.38,3439.76
47.4,3005.91
47.42,2624.22
47.44,2292.36
47.46,2008.72
47.48,1772.13
47.5,1581.7
47.52,1436.68
47.54,1336.35
47.56,1279.94
47.58,1266.55
47.6,1295.1
47.62,1364.29
47.64,1472.62
47.66,1618.28
47.68,1799.25
47.7,2013.21
47.72,2257.61
47.74,2529.64
47.76,2826.29
47.78,3144.34
47.8,3480.4
47.82,3830.95
47.84,4192.34
47.86,4560.87
47.88,4932.82
47.9,5304.45
47.92,5672.06
47.94,6032.07
47.96,6380.98
47.98,6715.45
48,7032.33
48.02,7328.69
48.04,7601.84
48.06,7849.37
48.08,8069.13
48.1,8259.33
48.12,8418.44
48.14,8545.3
48.16,8639.09
48.18,8699.29
48.2,8725.76
48.22,8718.65
48.24,8678.47
48.26,8605.97
48.28,8502.26
48.3,8368.67
48.32,8206.77
48.34,8018.39
48.36,7805.5
48.38,7570.29
48.4,7315.03
48.42,7042.13
48.44,6754.07
48.46,6453.36
48.48,6142.54
48.5,5824.14
48.52,5500.62
48.54,5174.42
48.56,4847.86
48.58,4523.16
48.6,4202.4
48.62,3887.53
48.64,3580.33
48.66,3282.4
48.68,2995.18
48.7,2719.92
48.72,2457.65
48.74,2209.24
48.76,1975.37
48.78,1756.53
48.8,1553.01
48.82,1364.97
48.84,1192.38
48.86,1035.06
48.88,892.713
48.9,764.897
48.92,651.074
48.94,550.606
48.96,462.78
48.98,386.814
49,321.88
49.02,267.114
49.04,221.632
49.06,184.54
49.08,154.951
49.1,131.992
49.12,114.816
49.14,102.61
49.16,94.6036
49.18,90.0739
49.2,88.3521
49.22,88.8258
49.24,90.9427
49.26,94.2109
49.28,98.2
49.3,102.54
49.32,106.919
49.34,111.082
49.36,114.827
49.38,118.001
49.4,120.497
49.42,122.247
49.44,123.219
49.46,123.414
49.48,122.857
49.5,121.594
49.52,119.688
49.54,117.214
49.56,114.257
49.58,110.903
49.6,107.24
49.62,103.357
49.64,99.3338
49.66,95.2473
49.68,91.1654
49.7,87.1472
49.72,83.2419
49.74,79.4889
49.76,75.9178
49.78,72.5484
49.8,69.3919
49.82,66.4512
49.84,63.7223
49.86,61.1951
49.88,58.8551
49.9,56.684
49.92,54.6615
49.94,52.766
49.96,50.9762
49.98,49.2715
50,47.6334
50.02,46.0458
50.04,44.4958
50.06,42.9738
50.08,41.474
50.1,39.9942
50.12,38.5359
50.14,37.1037
50.16,35.7054
50.18,34.3512
50.2,33.0531
50.22,31.8245
50.24,30.6794
50.26,29.6318
50.28,28.695
50.3,27.881
50.32,27.1998
50.34,26.6592
50.36,26.264
50.38,26.016
50.4,25.9136
50.42,25.9518
50.44,26.1221
50.46,26.4127
50.48,26.8087
50.5,27.2923
50.52,27.8434
50.54,28.44
50.56,29.0587
50.58,29.6752
50.6,30.2653
50.62,30.8049
50.64,31.2712
50.66,31.6429
50.68,31.901
50.7,32.0292
50.72,32.0142
50.74,31.8463
50.76,31.5195
50.78,31.0316
50.8,30.3845
50.82,29.584
50.84,28.6398
50.86,27.5648
50.88,26.3757
50.9,25.0918
50.92,23.7347
50.94,22.3282
50.96,20.8972
50.98,19.4673
51,18.0644
51.02,16.7139
51.04,15.4398
51.06,14.2647
51.08,13.209
51.1,12.2904
51.12,11.5235
51.14,10.9194
51.16,10.4856
51.18,10.226
51.2,10.1403
51.22,10.2246
51.24,10.4709
51.26,10.8681
51.28,11.4014
51.3,12.0534
51.32,12.8041
51.34,13.6314
51.36,14.5118
51.38,15.4209
51.4,16.3338
51.42,17.226
51.44,18.0734
51.46,18.8535
51.48,19.5456
51.5,20.1311
51.52,20.5942
51.54,20.9219
51.56,21.1047
51.58,21.1364
51.6,21.0144
51.62,20.7397
51.64,20.3169
51.66,19.7537
51.68,19.0612
51.7,18.2533
51.72,17.3466
51.74,16.3594
51.76,15.3122
51.78,14.2263
51.8,13.1239
51.82,12.0273
51.84,10.9586
51.86,9.9388
51.88,8.98788
51.9,8.12394
51.92,7.363
51.94,6.71859
51.96,6.20147
51.98,5.81945
52,5.57724
52.02,5.47635
52.04,5.51511
52.06,5.68876
52.08,5.98954
52.1,6.40698
52.12,6.9281
52.14,7.53776
52.16,8.21905
52.18,8.95363
52.2,9.72224
52.22,10.5051
52.24,11.2823
52.26,12.0345
52.28,12.743
52.3,13.3905
52.32,13.9612
52.34,14.4412
52.36,14.819
52.38,15.0855
52.4,15.2342
52.42,15.2616
52.44,15.1667
52.46,14.9514
52.48,14.6204
52.5,14.1809
52.52,13.6426
52.54,13.0172
52.56,12.3183
52.58,11.561
52.6,10.7616
52.62,9.9371
52.64,9.10499
52.66,8.28264
52.68,7.48703
52.7,6.73438
52.72,6.03972
52.74,5.41664
52.76,4.87694
52.78,4.43045
52.8,4.08475
52.82,3.84512
52.84,3.71435
52.86,3.6928
52.88,3.77835
52.9,3.96654
52.92,4.25063
52.94,4.62185
52.96,5.06957
52.98,5.58158
53,6.14438
53.02,6.74353
53.04,7.36394
53.06,7.99024
53.08,8.60712
53.1,9.1997
53.12,9.75384
53.14,10.2564
53.16,10.6957
53.18,11.0615
53.2,11.3453
53.22,11.5408
53.24,11.6436
53.26,11.6515
53.28,11.5644
53.3,11.3844
53.32,11.1158
53.34,10.7645
53.36,10.3387
53.38,9.84772
53.4,9.30252
53.42,8.71507
53.44,8.09816
53.46,7.46511
53.48,6.82944
53.5,6.2046
53.52,5.60363
53.54,5.03889
53.56,4.52179
53.58,4.06256
53.6,3.66999
53.62,3.35132
53.64,3.11201
53.66,2.95572
53.68,2.88419
53.7,2.89727
53.72,2.9929
53.74,3.16721
53.76,3.41462
53.78,3.72799
53.8,4.09879
53.82,4.5173
53.84,4.97286
53.86,5.45412
53.88,5.94926
53.9,6.44634
53.92,6.93349
53.94,7.39922
53.96,7.83264
53.98,8.22374
54,8.56358
54.02,8.84444
54.04,9.06006
54.06,9.20568
54.08,9.27821
54.1,9.27619
54.12,9.19988
54.14,9.05119
54.16,8.83365
54.18,8.55227
54.2,8.21346
54.22,7.82483
54.24,7.39503
54.26,6.93355
54.28,6.45046
54.3,5.95622
54.32,5.46144
54.34,4.97661
54.36,4.51188
54.38,4.07687
54.4,3.6804
54.42,3.33038
54.44,3.03356
54.46,2.79546
54.48,2.62021
54.5,2.51052
54.52,2.46761
54.54,2.49119
54.56,2.5795
54.58,2.72937
54.6,2.93628
54.62,3.19452
54.64,3.49727
54.66,3.83682
54.68,4.20473
54.7,4.59202
54.72,4.98936
54.74,5.38734
54.76,5.77662
54.78,6.14815
54.8,6.49339
54.82,6.80448
54.84,7.07442
54.86,7.29718
54.88,7.46786
54.9,7.58278
54.92,7.63953
54.94,7.63704
54.96,7.57555
54.98,7.45664
55,7.28312
55.02,7.05901
55.04,6.78941
55.06,6.48038
55.08,6.1388
55.1,5.77218
55.12,5.38854
55.14,4.99618
55.16,4.60351
55.18,4.21887
55.2,3.85034
55.22,3.50554
55.24,3.19152
55.26,2.91454
55.28,2.68001
55.3,2.49232
55.32,2.3548
55.34,2.26963
55.36,2.2378
55.38,2.25913
55.4,2.33225
55.42,2.45466
55.44,2.62281
55.46,2.83217
55.48,3.07735
55.5,3.35221
55.52,3.65005
55.54,3.96369
55.56,4.28572
55.58,4.60858
55.6,4.92481
55.62,5.22715
55.64,5.50872
55.66,5.7632
55.68,5.9849
55.7,6.16894
55.72,6.31131
55.74,6.40896
55.76,6.45987
55.78,6.46308
55.8,6.41868
55.82,6.32781
55.84,6.19266
55.86,6.01633
55.88,5.80283
55.9,5.55696
55.92,5.28416
55.94,4.99043
55.96,4.68218
55.98,4.36607
56,4.04886
56.02,3.73729
56.04,3.43791
56.06,3.15692
56.08,2.90007
56.1,2.67253
56.12,2.47877
56.14,2.32246
56.16,2.20645
56.18,2.13263
56.2,2.10198
56.22,2.11452
56.24,2.16929
56.26,2.26445
56.28,2.39727
56.3,2.56422
56.32,2.76108
56.34,2.98298
56.36,3.22457
56.38,3.4801
56.4,3.74361
56.42,4.00897
56.44,4.27011
56.46,4.5211
56.48,4.75628
56.5,4.97041
56.52,5.15874
56.54,5.31717
56.56,5.44225
56.58,5.53132
56.6,5.58255
56.62,5.59494
56.64,5.56834
56.66,5.50349
56.68,5.40194
56.7,5.26604
56.72,5.09887
56.74,4.90416
56.76,4.68623
56.78,4.44985
56.8,4.20017
56.82,3.94256
56.84,3.68253
56.86,3.42561
56.88,3.17718
56.9,2.94242
56.92,2.72613
56.94,2.53268
56.96,2.36592
56.98,2.22905
57,2.12461
57.02,2.05441
57.04,2.01948
57.06,2.02009
57.08,2.05572
57.1,2.12509
57.12,2.22621
57.14,2.35641
57.16,2.5124
57.18,2.69037
57.2,2.88607
57.22,3.09487
57.24,3.31195
57.26,3.5323
57.28,3.75093
57.3,3.96289
57.32,4.16346
57.34,4.3482
57.36,4.51303
57.38,4.65437
57.4,4.76917
57.42,4.855
57.44,4.91006
57.46,4.93327
57.48,4.92423
57.5,4.88323
57.52,4.8113
57.54,4.71011
57.56,4.58193
57.58,4.42965
57.6,4.25661
57.62,4.0666
57.64,3.86374
57.66,3.6524
57.68,3.43709
57.7,3.22236
57.72,3.01275
57.74,2.81259
57.76,2.62601
57.78,2.45681
57.8,2.30835
57.82,2.18355
57.84,2.08477
57.86,2.01378
57.88,1.97176
57.9,1.95924
57.92,1.97608
57.94,2.02155
57.96,2.09428
57.98,2.19233
58,2.31322
58.02,2.45401
58.04,2.61135
58.06,2.78155
58.08,2.96068
58.1,3.14467
58.12,3.32934
58.14,3.51058
58.16,3.68434
58.18,3.8468
58.2,3.99441
58.22,4.12397
58.24,4.23269
58.26,4.31826
58.28,4.37889
58.3,4.41336
58.32,4.42099
58.34,4.40172
58.36,4.35606
58.38,4.28509
58.4,4.19041
58.42,4.07415
58.44,3.93885
58.46,3.78749
58.48,3.62333
58.5,3.4499
58.52,3.27089
58.54,3.0901
58.56,2.91132
58.58,2.73827
58.6,2.57452
58.62,2.42342
58.64,2.288
58.66,2.17095
58.68,2.07452
58.7,2.00053
58.72,1.95027
58.74,1.92453
58.76,1.92357
58.78,1.94709
58.8,1.99429
58.82,2.06387
58.84,2.15404
58.86,2.26259
58.88,2.38695
58.9,2.52422
58.92,2.67122
58.94,2.82464
58.96,2.98101
58.98,3.13685
59,3.28872
59.02,3.43329
59.04,3.5674
59.06,3.68816
59.08,3.79297
59.1,3.87962
59.12,3.94628
59.14,3.99159
59.16,4.01462
59.18,4.01497
59.2,3.9927
59.22,3.94836
59.24,3.88298
59.26,3.79802
59.28,3.69536
59.3,3.57724
59.32,3.4462
59.34,3.30506
59.36,3.15682
59.38,3.00462
59.4,2.85165
59.42,2.70109
59.44,2.55607
59.46,2.41954
59.48,2.29427
59.5,2.18278
59.52,2.08724
59.54,2.0095
59.56,1.95098
59.58,1.91273
59.6,1.8953
59.62,1.89883
59.64,1.92302
59.66,1.96709
59.68,2.02988
59.7,2.10983
59.72,2.20502
59.74,2.31323
59.76,2.43196
59.78,2.55854
59.8,2.69011
59.82,2.82376
59.84,2.95655
59.86,3.08557
59.88,3.20802
59.9,3.32126
59.92,3.42287
59.94,3.5107
59.96,3.58289
59.98,3.63794
60,3.67474