File: driven_nickelate/characterization/xrd/NNO_fit_f=1.csv
40,5.93603
40.02,5.73415
40.04,5.54004
40.06,5.35859
40.08,5.19449
40.1,5.0521
40.12,4.9354
40.14,4.84784
40.16,4.7923
40.18,4.77103
40.2,4.78554
40.22,4.83658
40.24,4.92413
40.26,5.04739
40.28,5.20474
40.3,5.3938
40.32,5.6115
40.34,5.85405
40.36,6.11711
40.38,6.39579
40.4,6.68482
40.42,6.97861
40.44,7.27139
40.46,7.55733
40.48,7.83064
40.5,8.08576
40.52,8.31742
40.54,8.52078
40.56,8.69155
40.58,8.82612
40.6,8.92156
40.62,8.97581
40.64,8.98764
40.66,8.95675
40.68,8.88377
40.7,8.77028
40.72,8.61873
40.74,8.4325
40.76,8.21575
40.78,7.97339
40.8,7.71099
40.82,7.43462
40.84,7.15081
40.86,6.86632
40.88,6.58806
40.9,6.32294
40.92,6.07769
40.94,5.85873
40.96,5.67201
40.98,5.52291
41,5.41606
41.02,5.35528
41.04,5.34343
41.06,5.38238
41.08,5.47292
41.1,5.61475
41.12,5.80644
41.14,6.04547
41.16,6.32822
41.18,6.6501
41.2,7.00557
41.22,7.38827
41.24,7.79116
41.26,8.2066
41.28,8.62659
41.3,9.04288
41.32,9.44715
41.34,9.83121
41.36,10.1872
41.38,10.5076
41.4,10.7857
41.42,11.0156
41.44,11.1922
41.46,11.3115
41.48,11.3708
41.5,11.3687
41.52,11.3048
41.54,11.1805
41.56,10.9981
41.58,10.7615
41.6,10.4759
41.62,10.1474
41.64,9.78337
41.66,9.39211
41.68,8.98258
41.7,8.56437
41.72,8.14746
41.74,7.74199
41.76,7.35806
41.78,7.00553
41.8,6.69375
41.82,6.43141
41.84,6.22628
41.86,6.08509
41.88,6.01328
41.9,6.01494
41.92,6.09264
41.94,6.24736
41.96,6.47846
41.98,6.78361
42,7.15885
42.02,7.59863
42.04,8.0959
42.06,8.64221
42.08,9.2279
42.1,9.84227
42.12,10.4738
42.14,11.1103
42.16,11.7392
42.18,12.3481
42.2,12.9245
42.22,13.4565
42.24,13.9328
42.26,14.3431
42.28,14.6786
42.3,14.9315
42.32,15.096
42.34,15.1679
42.36,15.145
42.38,15.0271
42.4,14.8162
42.42,14.5161
42.44,14.133
42.46,13.6747
42.48,13.151
42.5,12.5733
42.52,11.9546
42.54,11.309
42.56,10.6513
42.58,9.99737
42.6,9.36297
42.62,8.76405
42.64,8.21612
42.66,7.73397
42.68,7.33131
42.7,7.02052
42.72,6.81226
42.74,6.71527
42.76,6.7361
42.78,6.87891
42.8,7.14538
42.82,7.53456
42.84,8.04282
42.86,8.66392
42.88,9.38904
42.9,10.2069
42.92,11.104
42.94,12.0647
42.96,13.0719
42.98,14.1067
43,15.1494
43.02,16.1796
43.04,17.1768
43.06,18.1206
43.08,18.9911
43.1,19.7698
43.12,20.4396
43.14,20.9853
43.16,21.3941
43.18,21.6559
43.2,21.7632
43.22,21.7122
43.24,21.5021
43.26,21.1356
43.28,20.619
43.3,19.9618
43.32,19.1772
43.34,18.2811
43.36,17.2928
43.38,16.2337
43.4,15.1275
43.42,13.9998
43.44,12.8772
43.46,11.787
43.48,10.7567
43.5,9.81332
43.52,8.98273
43.54,8.2892
43.56,7.75482
43.58,7.39886
43.6,7.23742
43.62,7.28287
43.64,7.54356
43.66,8.02348
43.68,8.72206
43.7,9.63408
43.72,10.7496
43.74,12.054
43.76,13.5283
43.78,15.1493
43.8,16.89
43.82,18.72
43.84,20.6061
43.86,22.513
43.88,24.4039
43.9,26.2412
43.92,27.9874
43.94,29.6057
43.96,31.0613
43.98,32.3214
44,33.3568
44.02,34.142
44.04,34.6563
44.06,34.8842
44.08,34.8159
44.1,34.4478
44.12,33.7826
44.14,32.8297
44.16,31.6051
44.18,30.1311
44.2,28.4365
44.22,26.5556
44.24,24.5285
44.26,22.3994
44.28,20.2166
44.3,18.0316
44.32,15.8974
44.34,13.8684
44.36,11.9986
44.38,10.3406
44.4,8.94466
44.42,7.85729
44.44,7.1203
44.46,6.76964
44.48,6.83448
44.5,7.33635
44.52,8.28835
44.54,9.69462
44.56,11.5499
44.58,13.8392
44.6,16.5379
44.62,19.6119
44.64,23.0178
44.66,26.7036
44.68,30.6095
44.7,34.6687
44.72,38.8088
44.74,42.9527
44.76,47.0205
44.78,50.9309
44.8,54.6026
44.82,57.9567
44.84,60.9176
44.86,63.4154
44.88,65.3874
44.9,66.7797
44.92,67.5488
44.94,67.6631
44.96,67.1036
44.98,65.8657
45,63.9591
45.02,61.4088
45.04,58.2551
45.06,54.5535
45.08,50.3744
45.1,45.8018
45.12,40.9331
45.14,35.8768
45.16,30.7514
45.18,25.6832
45.2,20.8043
45.22,16.2496
45.24,12.1549
45.26,8.65349
45.28,5.87392
45.3,3.9366
45.32,2.9512
45.34,3.01385
45.36,4.20446
45.38,6.58426
45.4,10.1937
45.42,15.0503
45.44,21.1477
45.46,28.4538
45.48,36.9107
45.5,46.4342
45.52,56.9143
45.54,68.2161
45.56,80.1811
45.58,92.6294
45.6,105.362
45.62,118.164
45.64,130.807
45.66,143.058
45.68,154.675
45.7,165.42
45.72,175.06
45.74,183.375
45.76,190.158
45.78,195.227
45.8,198.426
45.82,199.633
45.84,198.762
45.86,195.77
45.88,190.661
45.9,183.487
45.92,174.356
45.94,163.429
45.96,150.924
45.98,137.119
46,122.346
46.02,106.995
46.04,91.5101
46.06,76.3861
46.08,62.165
46.1,49.4313
46.12,38.8064
46.14,30.9421
46.16,26.5135
46.18,26.2121
46.2,30.7376
46.22,40.7898
46.24,57.0617
46.26,80.2312
46.28,110.955
46.3,149.861
46.32,197.549
46.34,254.583
46.36,321.492
46.38,398.779
46.4,486.924
46.42,586.4
46.44,697.691
46.46,821.33
46.48,957.933
46.5,1108.27
46.52,1273.32
46.54,1454.45
46.56,1653.5
46.58,1873.04
46.6,2116.7
46.62,2389.65
46.64,2699.22
46.66,3056
46.68,3475.42
46.7,3980.31
46.72,4605.13
46.74,5403.24
46.76,6459.88
46.78,7916.89
46.8,10022.5
46.82,13240.5
46.84,18513.8
46.86,27996.1
46.88,47493.2
46.9,97323.5
46.92,293278
46.94,3.77353e+06
46.96,2.14128e+06
46.98,283571
47,111976
47.02,61714.2
47.04,40074.7
47.06,28661.3
47.08,21818.2
47.1,17329.4
47.12,14179.6
47.14,11849.1
47.16,10049.5
47.18,8610.29
47.2,7425.89
47.22,6428.33
47.24,5572.6
47.26,4828.26
47.28,4174.4
47.3,3596.58
47.32,3084.81
47.34,2632.18
47.36,2234.04
47.38,1887.29
47.4,1589.99
47.42,1340.97
47.44,1139.62
47.46,985.705
47.48,879.164
47.5,820.046
47.52,808.391
47.54,844.16
47.56,927.173
47.58,1057.06
47.6,1233.22
47.62,1454.79
47.64,1720.64
47.66,2029.32
47.68,2379.1
47.7,2767.93
47.72,3193.45
47.74,3652.99
47.76,4143.63
47.78,4662.14
47.8,5205.06
47.82,5768.71
47.84,6349.18
47.86,6942.44
47.88,7544.28
47.9,8150.41
47.92,8756.47
47.94,9358.08
47.96,9950.87
47.98,10530.5
48,11092.7
48.02,11633.5
48.04,12148.8
48.06,12634.8
48.08,13088.2
48.1,13505.5
48.12,13883.8
48.14,14220.5
48.16,14513.1
48.18,14759.9
48.2,14959
48.22,15109.4
48.24,15210.1
48.26,15260.8
48.28,15261.3
48.3,15212.1
48.32,15113.7
48.34,14967.4
48.36,14774.6
48.38,14537
48.4,14256.7
48.42,13936.1
48.44,13577.9
48.46,13184.9
48.48,12760.3
48.5,12307.2
48.52,11829.2
48.54,11329.6
48.56,10812
48.58,10280.2
48.6,9737.63
48.62,9187.93
48.64,8634.63
48.66,8081.16
48.68,7530.81
48.7,6986.76
48.72,6452
48.74,5929.31
48.76,5421.29
48.78,4930.28
48.8,4458.39
48.82,4007.47
48.84,3579.12
48.86,3174.66
48.88,2795.15
48.9,2441.39
48.92,2113.9
48.94,1812.95
48.96,1538.59
48.98,1290.59
49,1068.53
49.02,871.787
49.04,699.527
49.06,550.765
49.08,424.357
49.1,319.034
49.12,233.415
49.14,166.03
49.16,115.346
49.18,79.7805
49.2,57.7265
49.22,47.5709
49.24,47.7131
49.26,56.5824
49.28,72.6544
49.3,94.4657
49.32,120.627
49.34,149.835
49.36,180.881
49.38,212.661
49.4,244.18
49.42,274.557
49.44,303.029
49.46,328.948
49.48,351.788
49.5,371.133
49.52,386.681
49.54,398.236
49.56,405.703
49.58,409.08
49.6,408.45
49.62,403.972
49.64,395.876
49.66,384.445
49.68,370.014
49.7,352.955
49.72,333.669
49.74,312.576
49.76,290.105
49.78,266.688
49.8,242.748
49.82,218.695
49.84,194.918
49.86,171.779
49.88,149.605
49.9,128.692
49.92,109.292
49.94,91.6183
49.96,75.8387
49.98,62.0784
50,50.4186
50.02,40.8978
50.04,33.5136
50.06,28.2249
50.08,24.9549
50.1,23.5945
50.12,24.0059
50.14,26.0271
50.16,29.4758
50.18,34.1541
50.2,39.8527
50.22,46.356
50.24,53.4457
50.26,60.9054
50.28,68.5247
50.3,76.1023
50.32,83.4497
50.34,90.394
50.36,96.7799
50.38,102.473
50.4,107.358
50.42,111.346
50.44,114.368
50.46,116.378
50.48,117.357
50.5,117.303
50.52,116.238
50.54,114.204
50.56,111.26
50.58,107.48
50.6,102.953
50.62,97.7796
50.64,92.0679
50.66,85.9335
50.68,79.4953
50.7,72.8736
50.72,66.1877
50.74,59.5534
50.76,53.0812
50.78,46.8741
50.8,41.0259
50.82,35.6199
50.84,30.7278
50.86,26.4085
50.88,22.7077
50.9,19.6573
50.92,17.2755
50.94,15.5673
50.96,14.5241
50.98,14.1253
51,14.3385
51.02,15.1209
51.04,16.4206
51.06,18.1777
51.08,20.326
51.1,22.7942
51.12,25.5081
51.14,28.3913
51.16,31.3675
51.18,34.3616
51.2,37.3013
51.22,40.1181
51.24,42.749
51.26,45.1369
51.28,47.2321
51.3,48.9925
51.32,50.3846
51.34,51.3835
51.36,51.973
51.38,52.146
51.4,51.9042
51.42,51.2574
51.44,50.2234
51.46,48.8273
51.48,47.1007
51.5,45.0807
51.52,42.8095
51.54,40.3325
51.56,37.6984
51.58,34.9572
51.6,32.1596
51.62,29.3561
51.64,26.5955
51.66,23.9246
51.68,21.3869
51.7,19.022
51.72,16.8651
51.74,14.9461
51.76,13.2895
51.78,11.9138
51.8,10.8317
51.82,10.0496
51.84,9.56791
51.86,9.38121
51.88,9.47849
51.9,9.84353
51.92,10.4554
51.94,11.289
51.96,12.3156
51.98,13.5038
52,14.8198
52.02,16.2284
52.04,17.6937
52.06,19.1798
52.08,20.6516
52.1,22.0752
52.12,23.4189
52.14,24.6534
52.16,25.7525
52.18,26.6937
52.2,27.4581
52.22,28.0311
52.24,28.4021
52.26,28.5652
52.28,28.5187
52.3,28.2652
52.32,27.8113
52.34,27.1676
52.36,26.3482
52.38,25.3703
52.4,24.254
52.42,23.0215
52.44,21.6969
52.46,20.3055
52.48,18.8733
52.5,17.4264
52.52,15.9908
52.54,14.5914
52.56,13.252
52.58,11.9945
52.6,10.8388
52.62,9.80205
52.64,8.89897
52.66,8.14116
52.68,7.53709
52.7,7.09203
52.72,6.80801
52.74,6.68386
52.76,6.7153
52.78,6.89513
52.8,7.21341
52.82,7.65774
52.84,8.21357
52.86,8.86452
52.88,9.59276
52.9,10.3794
52.92,11.2049
52.94,12.0493
52.96,12.8931
52.98,13.717
53,14.5026
53.02,15.233
53.04,15.8925
53.06,16.4673
53.08,16.9458
53.1,17.3183
53.12,17.5778
53.14,17.7194
53.16,17.7408
53.18,17.6423
53.2,17.4264
53.22,17.098
53.24,16.6641
53.26,16.1336
53.28,15.5173
53.3,14.8274
53.32,14.0772
53.34,13.2812
53.36,12.4542
53.38,11.6114
53.4,10.7683
53.42,9.93963
53.44,9.13986
53.46,8.38249
53.48,7.67992
53.5,7.04322
53.52,6.48197
53.54,6.00405
53.56,5.61556
53.58,5.32071
53.6,5.1218
53.62,5.01921
53.64,5.01143
53.66,5.09511
53.68,5.2652
53.7,5.51506
53.72,5.83662
53.74,6.22058
53.76,6.65663
53.78,7.13364
53.8,7.63993
53.82,8.16348
53.84,8.69219
53.86,9.21412
53.88,9.71772
53.9,10.192
53.92,10.627
53.94,11.0133
53.96,11.3432
53.98,11.6098
54,11.8078
54.02,11.9335
54.04,11.9845
54.06,11.9599
54.08,11.8606
54.1,11.6887
54.12,11.4479
54.14,11.143
54.16,10.7801
54.18,10.3663
54.2,9.9097
54.22,9.41894
54.24,8.90328
54.26,8.37226
54.28,7.83559
54.3,7.30289
54.32,6.78356
54.34,6.28657
54.36,5.82029
54.38,5.39233
54.4,5.00945
54.42,4.67737
54.44,4.40075
54.46,4.18307
54.48,4.0266
54.5,3.93237
54.52,3.90018
54.54,3.92864
54.56,4.01518
54.58,4.15615
54.6,4.34691
54.62,4.58194
54.64,4.85493
54.66,5.15897
54.68,5.48667
54.7,5.8303
54.72,6.18196
54.74,6.53376
54.76,6.87792
54.78,7.207
54.8,7.51394
54.82,7.79228
54.84,8.03623
54.86,8.24078
54.88,8.40178
54.9,8.51604
54.92,8.58131
54.94,8.59637
54.96,8.56101
54.98,8.47602
55,8.34315
55.02,8.16507
55.04,7.9453
55.06,7.68813
55.08,7.3985
55.1,7.08194
55.12,6.74439
55.14,6.39213
55.16,6.03163
55.18,5.66942
55.2,5.31197
55.22,4.96554
55.24,4.63609
55.26,4.32916
55.28,4.04976
55.3,3.80229
55.32,3.59046
55.34,3.41723
55.36,3.28477
55.38,3.1944
55.4,3.14663
55.42,3.14112
55.44,3.17673
55.46,3.25151
55.48,3.3628
55.5,3.50729
55.52,3.68104
55.54,3.87964
55.56,4.09825
55.58,4.33173
55.6,4.57472
55.62,4.82177
55.64,5.06744
55.66,5.30641
55.68,5.53357
55.7,5.74412
55.72,5.93368
55.74,6.09833
55.76,6.2347
55.78,6.34004
55.8,6.41225
55.82,6.4499
55.84,6.45227
55.86,6.41934
55.88,6.35178
55.9,6.25092
55.92,6.11875
55.94,5.95781
55.96,5.7712
55.98,5.56245
56,5.33549
56.02,5.09454
56.04,4.84405
56.06,4.58858
56.08,4.33273
56.1,4.08104
56.12,3.83791
56.14,3.60752
56.16,3.39373
56.18,3.20004
56.2,3.02951
56.22,2.8847
56.24,2.76765
56.26,2.67983
56.28,2.62212
56.3,2.5948
56.32,2.59759
56.34,2.62959
56.36,2.68938
56.38,2.77502
56.4,2.88409
56.42,3.01374
56.44,3.1608
56.46,3.32178
56.48,3.49297
56.5,3.67054
56.52,3.85057
56.54,4.02916
56.56,4.20249
56.58,4.3669
56.6,4.51896
56.62,4.65552
56.64,4.77379
56.66,4.87134
56.68,4.94623
56.7,4.99695
56.72,5.02249
56.74,5.02234
56.76,4.99651
56.78,4.9455
56.8,4.87029
56.82,4.77232
56.84,4.65346
56.86,4.51596
56.88,4.3624
56.9,4.19563
56.92,4.01873
56.94,3.83495
56.96,3.6476
56.98,3.46005
57,3.27562
57.02,3.09752
57.04,2.92881
57.06,2.77233
57.08,2.63064
57.1,2.50599
57.12,2.40028
57.14,2.31501
57.16,2.25128
57.18,2.20975
57.2,2.19066
57.22,2.19381
57.24,2.21856
57.26,2.2639
57.28,2.32841
57.3,2.41032
57.32,2.50756
57.34,2.61779
57.36,2.73845
57.38,2.86681
57.4,3.00004
57.42,3.13524
57.44,3.26952
57.46,3.40003
57.48,3.52406
57.5,3.63902
57.52,3.74257
57.54,3.83258
57.56,3.90724
57.58,3.96505
57.6,4.00485
57.62,4.02583
57.64,4.02759
57.66,4.01006
57.68,3.97359
57.7,3.91885
57.72,3.84688
57.74,3.75903
57.76,3.65694
57.78,3.5425
57.8,3.41784
57.82,3.28524
57.84,3.1471
57.86,3.00592
57.88,2.86422
57.9,2.72451
57.92,2.58921
57.94,2.46065
57.96,2.34099
57.98,2.23222
58,2.13608
58.02,2.05404
58.04,1.98731
58.06,1.93677
58.08,1.903
58.1,1.88623
58.12,1.88639
58.14,1.90307
58.16,1.93557
58.18,1.98286
58.2,2.04368
58.22,2.11651
58.24,2.19962
58.26,2.29109
58.28,2.38889
58.3,2.49089
58.32,2.59488
58.34,2.69866
58.36,2.80006
58.38,2.89698
58.4,2.98742
58.42,3.06955
58.44,3.14169
58.46,3.2024
58.48,3.25045
58.5,3.28488
58.52,3.30502
58.54,3.31045
58.56,3.30104
58.58,3.27697
58.6,3.23867
58.62,3.18686
58.64,3.12249
58.66,3.04676
58.68,2.96107
58.7,2.86698
58.72,2.7662
58.74,2.66057
58.76,2.55197
58.78,2.44234
58.8,2.33362
58.82,2.22769
58.84,2.12639
58.86,2.03142
58.88,1.94437
58.9,1.86665
58.92,1.79947
58.94,1.74385
58.96,1.70055
58.98,1.67013
59,1.65285
59.02,1.64876
59.04,1.65764
59.06,1.67903
59.08,1.71225
59.1,1.75638
59.12,1.81032
59.14,1.87281
59.16,1.94241
59.18,2.01757
59.2,2.09668
59.22,2.17805
59.24,2.25995
59.26,2.34069
59.28,2.4186
59.3,2.4921
59.32,2.5597
59.34,2.62003
59.36,2.67189
59.38,2.71424
59.4,2.74624
59.42,2.76725
59.44,2.77685
59.46,2.77483
59.48,2.76123
59.5,2.73627
59.52,2.70042
59.54,2.65433
59.56,2.59885
59.58,2.53498
59.6,2.46389
59.62,2.38686
59.64,2.3053
59.66,2.22064
59.68,2.1344
59.7,2.0481
59.72,1.96323
59.74,1.88127
59.76,1.80362
59.78,1.73156
59.8,1.66629
59.82,1.60884
59.84,1.5601
59.86,1.52079
59.88,1.49144
59.9,1.47237
59.92,1.46374
59.94,1.46549
59.96,1.47736
59.98,1.49892
60,1.52955